Folder: tutorials/L2_techniques/ec_ms_quantification

Note: README.md
# tutorials
jupyter notebook tutorials for ixdat

File: the_good_bit.csv
ixdat version = 0.2.7.dev1
name = 2022-07-19 10_02_32 HER_OER_calibration AND HER_OER_calibration_01_01_CVA.mpt AND HER_OER_calibration_01_02_CP.mpt AND HER_OER_calibration_01_03_CVA.mpt AND HER_OER_calibration_01_04_CP.mpt
technique = EC-MS
tstamp = 1658217752.0
backend_name = BackendBase(none, address=none)
id = 16
timecol 'time/s' for: 'Ewe/V' and '<I>/mA' and 'selector'
timecol 'C6M44 time [s]' for: 'M44'
timecol 'C3M28 time [s]' for: 'M28'
timecol 'C4M32 time [s]' for: 'M32'
timecol 'C1M4 time [s]' for: 'M4'
timecol 'C0M2 time [s]' for: 'M2'
timecol 'C5M40 time [s]' for: 'M40'
timecol 'C2M18 time [s]' for: 'M18'
aliases = {"M2": ["M2 [A]"], "M4": ["M4 [A]"], "M18": ["M18 [A]"], "M28": ["M28 [A]"], "M32": ["M32 [A]"], "M40": ["M40 [A]"], "M44": ["M44 [A]"], "t": ["time/s"], "raw_potential": ["Ewe/V"], "raw_current": ["I/mA", "<I>/mA"], "cycle": ["cycle number"]}
N_header_lines = 18

time/s,	Ewe/V,	<I>/mA,	selector,	C6M44 time [s],	M44,	C3M28 time [s],	M28,	C4M32 time [s],	M32,	C1M4 time [s],	M4,	C0M2 time [s],	M2,	C5M40 time [s],	M40,	C2M18 time [s],	M18
5000.23,	1.54365,	0.000820636,	0,	5000.68,	4.30076e-13,	5000.45,	9.517951e-13,	5000.53,	7.113168e-12,	5000.31,	4.829916e-10,	5000.23,	8.337558e-12,	5000.6,	4.681783e-14,	5000.38,	3.235823e-11
5007.23,	1.40369,	-5.5803e-05,	0,	5031.23,	3.511013e-13,	5031.01,	9.227648e-13,	5031.09,	3.316679e-12,	5030.86,	4.920291e-10,	5030.79,	8.601488e-12,	5031.16,	3.494328e-14,	5030.94,	3.230231e-11
5014.23,	1.26372,	-0.000260365,	0,	5061.79,	3.258982e-13,	5061.57,	9.204685e-13,	5061.64,	3.056334e-12,	5061.42,	4.921806e-10,	5061.35,	8.645295e-12,	5061.72,	3.472052e-14,	5061.49,	3.221825e-11
5021.22,	1.123819,	-0.000644653,	0,	5092.35,	3.023192e-13,	5092.13,	9.237004e-13,	5092.2,	3.060634e-12,	5091.98,	4.918031e-10,	5091.9,	8.755351e-12,	5092.28,	3.838981e-14,	5092.05,	3.23028e-11
5028.22,	0.983872,	-0.00156917,	0,	5122.91,	3.412558e-13,	5122.68,	9.162726e-13,	5122.76,	3.027546e-12,	5122.53,	4.923059e-10,	5122.46,	8.726767e-12,	5122.83,	2.487096e-14,	5122.61,	3.221582e-11
5035.22,	0.843971,	-0.00508519,	0,	5153.46,	3.488576e-13,	5153.24,	9.145433e-13,	5153.31,	3.131165e-12,	5153.09,	4.908617e-10,	5153.02,	8.711461e-12,	5153.39,	4.034595e-14,	5153.16,	3.214759e-11
5042.21,	0.70402,	-0.0220151,	0,	5184.02,	3.494124e-13,	5183.8,	9.380859e-13,	5183.87,	4.127206e-12,	5183.65,	4.901989e-10,	5183.57,	8.472742e-12,	5183.95,	3.753121e-14,	5183.72,	3.256383e-11
5049.21,	0.564136,	-0.00141421,	0,	5214.58,	3.191672e-13,	5214.35,	9.232143e-13,	5214.43,	3.111162e-12,	5214.2,	4.917527e-10,	5214.13,	8.618153e-12,	5214.5,	4.237499e-14,	5214.28,	3.227317e-11
5056.2,	0.424099,	-0.00074009,	0,	5245.13,	2.872735e-13,	5244.91,	9.014943e-13,	5244.99,	3.062502e-12,	5244.76,	4.919503e-10,	5244.69,	1.50589e-11,	5245.06,	4.382084e-14,	5244.84,	3.239997e-11
5063.2,	0.284111,	-0.00431121,	0,	5275.69,	2.850582e-13,	5275.47,	9.162241e-13,	5275.54,	3.021196e-12,	5275.32,	4.920965e-10,	5275.24,	8.699242e-12,	5275.62,	1.286679e-14,	5275.39,	3.220365e-11
5070.2,	0.144208,	-0.00578511,	0,	5306.25,	3.001241e-13,	5306.03,	9.096955e-13,	5306.1,	3.028745e-12,	5305.88,	4.909242e-10,	5305.8,	8.689862e-12,	5306.17,	2.235996e-14,	5305.95,	3.215462e-11
5076.9,	0.00963006,	-0.130873,	0,	5336.81,	3.480436e-13,	5336.58,	9.24891e-13,	5336.66,	7.890202e-12,	5336.43,	4.814963e-10,	5336.36,	8.267952e-12,	5336.73,	2.349395e-14,	5336.51,	3.242301e-11
5083.42,	0.140712,	0.00479401,	0,	5367.36,	3.043523e-13,	5367.14,	9.027943e-13,	5367.21,	3.36086e-12,	5366.99,	4.911332e-10,	5366.92,	8.54037e-12,	5367.29,	2.642615e-14,	5367.07,	3.244895e-11
5090.41,	0.28064,	0.00499295,	0,	5397.92,	2.989982e-13,	5397.7,	8.914948e-13,	5397.77,	3.084173e-12,	5397.55,	4.913486e-10,	5397.47,	8.645126e-12,	5397.85,	3.030603e-14,	5397.62,	3.251824e-11
5097.41,	0.420485,	0.00057882,	0,	5428.48,	2.658734e-13,	5428.25,	8.792356e-13,	5428.33,	3.057447e-12,	5428.11,	4.91602e-10,	5428.03,	8.757687e-12,	5428.4,	2.822028e-14,	5428.18,	3.219599e-11
5104.41,	0.560472,	0.000536335,	0,	5459.04,	2.948348e-13,	5458.81,	8.825363e-13,	5458.89,	3.033434e-12,	5458.66,	4.912575e-10,	5458.59,	8.697404e-12,	5458.96,	3.093782e-14,	5458.74,	3.222891e-11
5111.4,	0.700479,	0.000945439,	0,	5489.59,	3.050368e-13,	5489.37,	8.958e-13,	5489.44,	3.098652e-12,	5489.22,	4.908747e-10,	5489.14,	8.712854e-12,	5489.52,	2.746699e-14,	5489.29,	3.204182e-11
5118.4,	0.840319,	0.00287172,	0,	5520.15,	3.066041e-13,	5519.92,	8.852821e-13,	5520.0,	4.347938e-12,	5519.78,	4.895707e-10,	5519.7,	8.426614e-12,	5520.07,	4.034189e-14,	5519.85,	3.269767e-11
5125.14,	0.974982,	0.00489631,	1,	5550.71,	2.93875e-13,	5550.48,	8.997042e-13,	5550.56,	3.123324e-12,	5550.34,	4.917133e-10,	5550.26,	8.626071e-12,	5550.63,	2.868198e-14,	5550.41,	3.220416e-11
5131.97,	1.11201,	0.00473424,	1,	5581.26,	2.823771e-13,	5581.04,	8.686691e-13,	5581.11,	3.046654e-12,	5580.89,	4.915559e-10,	5580.82,	8.971863e-12,	5581.19,	3.218521e-14,	5580.96,	3.236921e-11
5138.97,	1.25175,	0.00527568,	1,	5611.82,	2.651606e-13,	5611.6,	8.840145e-13,	5611.67,	3.062696e-12,	5611.45,	4.907436e-10,	5611.37,	8.650947e-12,	5611.75,	3.301546e-14,	5611.52,	3.214634e-11
5145.97,	1.39185,	0.00544761,	1,	5642.38,	2.942517e-13,	5642.15,	9.021544e-13,	5642.23,	3.038732e-12,	5642.01,	4.904108e-10,	5641.93,	8.701776e-12,	5642.3,	3.058142e-14,	5642.08,	3.217709e-11
5152.96,	1.5317,	0.00854389,	1,	5672.93,	3.196086e-13,	5672.71,	8.992263e-13,	5672.79,	8.454781e-12,	5672.56,	4.798893e-10,	5672.49,	8.307751e-12,	5672.86,	3.076367e-14,	5672.64,	3.243153e-11
5159.96,	1.67162,	0.0661104,	1,	5703.49,	2.943286e-13,	5703.27,	8.84217e-13,	5703.34,	3.460688e-12,	5703.12,	4.913868e-10,	5703.05,	8.559927e-12,	5703.42,	3.140357e-14,	5703.19,	3.229422e-11
5166.56,	1.59699,	0.00335719,	1,	5734.05,	2.887356e-13,	5733.83,	8.88344e-13,	5733.9,	3.070379e-12,	5733.68,	4.911805e-10,	5733.6,	8.641716e-12,	5733.97,	2.940692e-14,	5733.75,	3.231716e-11
5173.55,	1.45707,	1.95388e-05,	1,	,	,	,	,	,	,	,	,	,	,	,	,	,
5180.55,	1.3172,	-0.000201738,	1,	,	,	,	,	,	,	,	,	,	,	,	,	,
5187.55,	1.17724,	-0.00047748,	1,	,	,	,	,	,	,	,	,	,	,	,	,	,
5194.54,	1.037184,	-0.00112348,	1,	,	,	,	,	,	,	,	,	,	,	,	,	,
5201.54,	0.89735,	-0.0030691,	1,	,	,	,	,	,	,	,	,	,	,	,	,	,
5208.54,	0.757415,	-0.0200216,	1,	,	,	,	,	,	,	,	,	,	,	,	,	,
5215.53,	0.617326,	-0.00303347,	1,	,	,	,	,	,	,	,	,	,	,	,	,	,
5222.53,	0.477459,	-0.000959085,	1,	,	,	,	,	,	,	,	,	,	,	,	,	,
5229.52,	0.33745,	-0.00161987,	1,	,	,	,	,	,	,	,	,	,	,	,	,	,
5236.52,	0.197528,	-0.00384734,	1,	,	,	,	,	,	,	,	,	,	,	,	,	,
5243.52,	0.0575513,	-0.0075281,	1,	,	,	,	,	,	,	,	,	,	,	,	,	,
5249.74,	0.0874201,	0.00634101,	1,	,	,	,	,	,	,	,	,	,	,	,	,	,
5256.74,	0.22734,	0.00373727,	1,	,	,	,	,	,	,	,	,	,	,	,	,	,
5263.73,	0.367163,	0.000964909,	1,	,	,	,	,	,	,	,	,	,	,	,	,	,
5270.73,	0.507075,	0.000472212,	1,	,	,	,	,	,	,	,	,	,	,	,	,	,
5277.73,	0.647004,	0.000506978,	1,	,	,	,	,	,	,	,	,	,	,	,	,	,
5284.72,	0.786967,	0.00110102,	1,	,	,	,	,	,	,	,	,	,	,	,	,	,
5291.72,	0.926943,	0.00480907,	1,	,	,	,	,	,	,	,	,	,	,	,	,	,
5298.3,	1.05854,	0.00458628,	2,	,	,	,	,	,	,	,	,	,	,	,	,	,
5305.3,	1.1985,	0.00479261,	2,	,	,	,	,	,	,	,	,	,	,	,	,	,
5312.29,	1.33838,	0.00515831,	2,	,	,	,	,	,	,	,	,	,	,	,	,	,
5319.29,	1.47838,	0.00598857,	2,	,	,	,	,	,	,	,	,	,	,	,	,	,
5326.28,	1.61825,	0.0258863,	2,	,	,	,	,	,	,	,	,	,	,	,	,	,
5332.88,	1.65028,	0.0164772,	2,	,	,	,	,	,	,	,	,	,	,	,	,	,
5339.88,	1.51038,	0.000274634,	2,	,	,	,	,	,	,	,	,	,	,	,	,	,
5346.87,	1.3704,	-0.000137358,	2,	,	,	,	,	,	,	,	,	,	,	,	,	,
5353.87,	1.230569,	-0.000355983,	2,	,	,	,	,	,	,	,	,	,	,	,	,	,
5360.87,	1.090553,	-0.000825385,	2,	,	,	,	,	,	,	,	,	,	,	,	,	,
5367.86,	0.95054,	-0.00202619,	2,	,	,	,	,	,	,	,	,	,	,	,	,	,
5374.86,	0.810586,	-0.00810046,	2,	,	,	,	,	,	,	,	,	,	,	,	,	,
5381.86,	0.670842,	-0.00963568,	2,	,	,	,	,	,	,	,	,	,	,	,	,	,
5388.85,	0.530772,	-0.00126235,	2,	,	,	,	,	,	,	,	,	,	,	,	,	,
5395.85,	0.390815,	-0.000996028,	2,	,	,	,	,	,	,	,	,	,	,	,	,	,
5402.85,	0.250909,	-0.00412093,	2,	,	,	,	,	,	,	,	,	,	,	,	,	,
5409.84,	0.110896,	-0.00711846,	2,	,	,	,	,	,	,	,	,	,	,	,	,	,
5416.07,	0.0341511,	0.01577,	2,	,	,	,	,	,	,	,	,	,	,	,	,	,
5423.06,	0.1740156,	0.00378443,	2,	,	,	,	,	,	,	,	,	,	,	,	,	,
5430.06,	0.3139582,	0.00343071,	2,	,	,	,	,	,	,	,	,	,	,	,	,	,
5437.05,	0.4538725,	0.000352527,	2,	,	,	,	,	,	,	,	,	,	,	,	,	,
5444.05,	0.593619,	0.000366453,	2,	,	,	,	,	,	,	,	,	,	,	,	,	,
5451.05,	0.733711,	0.000724051,	2,	,	,	,	,	,	,	,	,	,	,	,	,	,
5458.04,	0.873581,	0.00429413,	2,	,	,	,	,	,	,	,	,	,	,	,	,	,
5464.62,	1.00535,	0.00456775,	3,	,	,	,	,	,	,	,	,	,	,	,	,	,
5471.62,	1.1451,	0.00449949,	3,	,	,	,	,	,	,	,	,	,	,	,	,	,
5478.62,	1.28509,	0.00497441,	3,	,	,	,	,	,	,	,	,	,	,	,	,	,
5485.61,	1.42496,	0.00515192,	3,	,	,	,	,	,	,	,	,	,	,	,	,	,
5492.61,	1.56485,	0.0117943,	3,	,	,	,	,	,	,	,	,	,	,	,	,	,
5499.36,	1.70037,	0.123416,	3,	,	,	,	,	,	,	,	,	,	,	,	,	,
5506.2,	1.56372,	0.00127823,	3,	,	,	,	,	,	,	,	,	,	,	,	,	,
5513.2,	1.4237,	-8.03206e-05,	3,	,	,	,	,	,	,	,	,	,	,	,	,	,
5520.19,	1.28377,	-0.000261684,	3,	,	,	,	,	,	,	,	,	,	,	,	,	,
5527.19,	1.14384,	-0.000613415,	3,	,	,	,	,	,	,	,	,	,	,	,	,	,
5534.19,	1.00391,	-0.00141313,	3,	,	,	,	,	,	,	,	,	,	,	,	,	,
5541.18,	0.864029,	-0.00424246,	3,	,	,	,	,	,	,	,	,	,	,	,	,	,
5548.18,	0.724104,	-0.0273221,	3,	,	,	,	,	,	,	,	,	,	,	,	,	,
5555.18,	0.584003,	-0.0018925,	3,	,	,	,	,	,	,	,	,	,	,	,	,	,
5562.17,	0.444128,	-0.00092295,	3,	,	,	,	,	,	,	,	,	,	,	,	,	,
5569.17,	0.304169,	-0.00365925,	3,	,	,	,	,	,	,	,	,	,	,	,	,	,
5576.17,	0.164233,	-0.00488569,	3,	,	,	,	,	,	,	,	,	,	,	,	,	,
5583.16,	0.0244021,	-0.0334424,	3,	,	,	,	,	,	,	,	,	,	,	,	,	,
5589.39,	0.120858,	0.00554653,	3,	,	,	,	,	,	,	,	,	,	,	,	,	,
5596.38,	0.260649,	0.00403633,	3,	,	,	,	,	,	,	,	,	,	,	,	,	,
5603.38,	0.400445,	0.00056711,	3,	,	,	,	,	,	,	,	,	,	,	,	,	,
5610.37,	0.540439,	0.000425381,	3,	,	,	,	,	,	,	,	,	,	,	,	,	,
5617.37,	0.680458,	0.000500236,	3,	,	,	,	,	,	,	,	,	,	,	,	,	,
5624.37,	0.820399,	0.0018836,	3,	,	,	,	,	,	,	,	,	,	,	,	,	,
5631.36,	0.960316,	0.00465946,	3,	,	,	,	,	,	,	,	,	,	,	,	,	,
5637.94,	1.0918,	0.004406,	4,	,	,	,	,	,	,	,	,	,	,	,	,	,
5644.94,	1.23192,	0.00476511,	4,	,	,	,	,	,	,	,	,	,	,	,	,	,
5651.94,	1.371776,	0.00499201,	4,	,	,	,	,	,	,	,	,	,	,	,	,	,
5658.93,	1.51173,	0.00699512,	4,	,	,	,	,	,	,	,	,	,	,	,	,	,
5665.93,	1.65157,	0.0461818,	4,	,	,	,	,	,	,	,	,	,	,	,	,	,
5672.53,	1.61699,	0.00595172,	4,	,	,	,	,	,	,	,	,	,	,	,	,	,
5679.52,	1.47706,	5.10143e-05,	4,	,	,	,	,	,	,	,	,	,	,	,	,	,
5686.52,	1.33699,	-0.000201023,	4,	,	,	,	,	,	,	,	,	,	,	,	,	,
5693.52,	1.19711,	-0.000434891,	4,	,	,	,	,	,	,	,	,	,	,	,	,	,
5700.51,	1.05732,	-0.00101537,	4,	,	,	,	,	,	,	,	,	,	,	,	,	,
5707.51,	0.91729,	-0.00262969,	4,	,	,	,	,	,	,	,	,	,	,	,	,	,
5714.5,	0.777251,	-0.0144391,	4,	,	,	,	,	,	,	,	,	,	,	,	,	,
5721.5,	0.637362,	-0.0042917,	4,	,	,	,	,	,	,	,	,	,	,	,	,	,
5728.5,	0.497578,	-0.00110663,	4,	,	,	,	,	,	,	,	,	,	,	,	,	,
5735.49,	0.357464,	-0.00135369,	4,	,	,	,	,	,	,	,	,	,	,	,	,	,
5742.49,	0.217408,	-0.00369784,	4,	,	,	,	,	,	,	,	,	,	,	,	,	,
5749.49,	0.0775909,	-0.00663988,	4,	,	,	,	,	,	,	,	,	,	,	,	,	,
5749.82,	0.07095556,	-0.00667385,	4,	,	,	,	,	,	,	,	,	,	,	,	,	,